{
  "resourceType":"Questionnaire",
  "contained":[
    {
      "resourceType":"ValueSet",
      "id":"423f0b31f93648168caff51d11df8e4c",
      "name":"K10Scale1",
      "publisher":"DCA eHealth Solutions",
      "telecom":[
        {
          "system":"url",
          "value":"http://tcm7.com.au/fhir"
        }
      ],
      "description":"1. tired out for no good reason",
      "status":"active",
      "experimental":false,
      "extensible":false,
      "date":"2014-05-03T10:41:45-07:00",
      "define":{
        "system":"http://tcm7.com.au/fhir#code=K10Scale1",
      "caseSensitive":true,
        "concept":[
          {
            "extension":[
              {
                "url":"http://tcm7.com.au/fhir#weightedValue",
                "valueDecimal":1.0
              }
            ],
            "code":"1",
            "abstract":false,
            "display":"1"
          },
          {
            "extension":[
              {
                "url":"http://tcm7.com.au/fhir#weightedValue",
                "valueDecimal":2.0
              }
            ],
            "code":"2",
            "abstract":false,
            "display":"2"
          },
          {
            "extension":[
              {
                "url":"http://tcm7.com.au/fhir#weightedValue",
                "valueDecimal":3.0
              }
            ],
            "code":"3",
            "abstract":false,
            "display":"3"
          },
          {
            "extension":[
              {
                "url":"http://tcm7.com.au/fhir#weightedValue",
                "valueDecimal":4.0
              }
            ],
            "code":"4",
            "abstract":false,
            "display":"4"
          },
          {
            "extension":[
              {
                "url":"http://tcm7.com.au/fhir#weightedValue",
                "valueDecimal":5.0
              }
            ],
            "code":"5",
            "abstract":false,
            "display":"5"
          }
        ]
      }
    },
    {
      "resourceType":"ValueSet",
      "id":"f2ab75e8d6954504bc5eb1698b939396",
      "name":"K10Scale2",
      "publisher":"DCA eHealth Solutions",
      "telecom":[
        {
          "system":"url",
          "value":"http://tcm7.com.au/fhir"
        }
      ],
      "description":"2. nervous?",
      "status":"active",
      "experimental":false,
      "extensible":false,
      "date":"2014-05-03T10:41:45-07:00",
      "define":{
        "system":"http://tcm7.com.au/fhir#code=K10Scale2",
      "caseSensitive":true,
        "concept":[
          {
            "extension":[
              {
                "url":"http://tcm7.com.au/fhir#weightedValue",
                "valueDecimal":1.0
              }
            ],
            "code":"1",
            "abstract":false,
            "display":"1"
          },
          {
            "extension":[
              {
                "url":"http://tcm7.com.au/fhir#weightedValue",
                "valueDecimal":2.0
              }
            ],
            "code":"2",
            "abstract":false,
            "display":"2"
          },
          {
            "extension":[
              {
                "url":"http://tcm7.com.au/fhir#weightedValue",
                "valueDecimal":3.0
              }
            ],
            "code":"3",
            "abstract":false,
            "display":"3"
          },
          {
            "extension":[
              {
                "url":"http://tcm7.com.au/fhir#weightedValue",
                "valueDecimal":4.0
              }
            ],
            "code":"4",
            "abstract":false,
            "display":"4"
          },
          {
            "extension":[
              {
                "url":"http://tcm7.com.au/fhir#weightedValue",
                "valueDecimal":5.0
              }
            ],
            "code":"5",
            "abstract":false,
            "display":"5"
          }
        ]
      }
    },
    {
      "resourceType":"ValueSet",
      "id":"efbbcef14a234cc19ef84cf6af62a7d4",
      "name":"K10Scale3",
      "publisher":"DCA eHealth Solutions",
      "telecom":[
        {
          "system":"url",
          "value":"http://tcm7.com.au/fhir"
        }
      ],
      "description":"3. so nervous that nothing could calm you down?",
      "status":"active",
      "experimental":false,
      "extensible":false,
      "date":"2014-05-03T10:41:45-07:00",
      "define":{
        "system":"http://tcm7.com.au/fhir#code=K10Scale3",
      "caseSensitive":true,
        "concept":[
          {
            "extension":[
              {
                "url":"http://tcm7.com.au/fhir#weightedValue",
                "valueDecimal":1.0
              }
            ],
            "code":"1",
            "abstract":false,
            "display":"1"
          },
          {
            "extension":[
              {
                "url":"http://tcm7.com.au/fhir#weightedValue",
                "valueDecimal":2.0
              }
            ],
            "code":"2",
            "abstract":false,
            "display":"2"
          },
          {
            "extension":[
              {
                "url":"http://tcm7.com.au/fhir#weightedValue",
                "valueDecimal":3.0
              }
            ],
            "code":"3",
            "abstract":false,
            "display":"3"
          },
          {
            "extension":[
              {
                "url":"http://tcm7.com.au/fhir#weightedValue",
                "valueDecimal":4.0
              }
            ],
            "code":"4",
            "abstract":false,
            "display":"4"
          },
          {
            "extension":[
              {
                "url":"http://tcm7.com.au/fhir#weightedValue",
                "valueDecimal":5.0
              }
            ],
            "code":"5",
            "abstract":false,
            "display":"5"
          }
        ]
      }
    },
    {
      "resourceType":"ValueSet",
      "id":"a0b2745dcf8f459c97bfd3a0fe9d2438",
      "name":"K10Scale4",
      "publisher":"DCA eHealth Solutions",
      "telecom":[
        {
          "system":"url",
          "value":"http://tcm7.com.au/fhir"
        }
      ],
      "description":"4. hopeless?",
      "status":"active",
      "experimental":false,
      "extensible":false,
      "date":"2014-05-03T10:41:45-07:00",
      "define":{
        "system":"http://tcm7.com.au/fhir#code=K10Scale4",
      "caseSensitive":true,
        "concept":[
          {
            "extension":[
              {
                "url":"http://tcm7.com.au/fhir#weightedValue",
                "valueDecimal":1.0
              }
            ],
            "code":"1",
            "abstract":false,
            "display":"1"
          },
          {
            "extension":[
              {
                "url":"http://tcm7.com.au/fhir#weightedValue",
                "valueDecimal":2.0
              }
            ],
            "code":"2",
            "abstract":false,
            "display":"2"
          },
          {
            "extension":[
              {
                "url":"http://tcm7.com.au/fhir#weightedValue",
                "valueDecimal":3.0
              }
            ],
            "code":"3",
            "abstract":false,
            "display":"3"
          },
          {
            "extension":[
              {
                "url":"http://tcm7.com.au/fhir#weightedValue",
                "valueDecimal":4.0
              }
            ],
            "code":"4",
            "abstract":false,
            "display":"4"
          },
          {
            "extension":[
              {
                "url":"http://tcm7.com.au/fhir#weightedValue",
                "valueDecimal":5.0
              }
            ],
            "code":"5",
            "abstract":false,
            "display":"5"
          }
        ]
      }
    },
    {
      "resourceType":"ValueSet",
      "id":"09cb32a0d22e4063ab3ef9162a406767",
      "name":"K10Scale5",
      "publisher":"DCA eHealth Solutions",
      "telecom":[
        {
          "system":"url",
          "value":"http://tcm7.com.au/fhir"
        }
      ],
      "description":"5. restless or fidgety?",
      "status":"active",
      "experimental":false,
      "extensible":false,
      "date":"2014-05-03T10:41:45-07:00",
      "define":{
        "system":"http://tcm7.com.au/fhir#code=K10Scale5",
      "caseSensitive":true,
        "concept":[
          {
            "extension":[
              {
                "url":"http://tcm7.com.au/fhir#weightedValue",
                "valueDecimal":1.0
              }
            ],
            "code":"1",
            "abstract":false,
            "display":"1"
          },
          {
            "extension":[
              {
                "url":"http://tcm7.com.au/fhir#weightedValue",
                "valueDecimal":2.0
              }
            ],
            "code":"2",
            "abstract":false,
            "display":"2"
          },
          {
            "extension":[
              {
                "url":"http://tcm7.com.au/fhir#weightedValue",
                "valueDecimal":3.0
              }
            ],
            "code":"3",
            "abstract":false,
            "display":"3"
          },
          {
            "extension":[
              {
                "url":"http://tcm7.com.au/fhir#weightedValue",
                "valueDecimal":4.0
              }
            ],
            "code":"4",
            "abstract":false,
            "display":"4"
          },
          {
            "extension":[
              {
                "url":"http://tcm7.com.au/fhir#weightedValue",
                "valueDecimal":5.0
              }
            ],
            "code":"5",
            "abstract":false,
            "display":"5"
          }
        ]
      }
    },
    {
      "resourceType":"ValueSet",
      "id":"6407c2ccfa944cb9b4a25f67aa4bd0df",
      "name":"K10Scale6",
      "publisher":"DCA eHealth Solutions",
      "telecom":[
        {
          "system":"url",
          "value":"http://tcm7.com.au/fhir"
        }
      ],
      "description":"6. so restless you could not sit still?",
      "status":"active",
      "experimental":false,
      "extensible":false,
      "date":"2014-05-03T10:41:45-07:00",
      "define":{
        "system":"http://tcm7.com.au/fhir#code=K10Scale6",
      "caseSensitive":true,
        "concept":[
          {
            "extension":[
              {
                "url":"http://tcm7.com.au/fhir#weightedValue",
                "valueDecimal":3.0
              }
            ],
            "code":"3",
            "abstract":false,
            "display":"3"
          },
          {
            "extension":[
              {
                "url":"http://tcm7.com.au/fhir#weightedValue",
                "valueDecimal":1.0
              }
            ],
            "code":"1",
            "abstract":false,
            "display":"1"
          },
          {
            "extension":[
              {
                "url":"http://tcm7.com.au/fhir#weightedValue",
                "valueDecimal":2.0
              }
            ],
            "code":"2",
            "abstract":false,
            "display":"2"
          },
          {
            "extension":[
              {
                "url":"http://tcm7.com.au/fhir#weightedValue",
                "valueDecimal":4.0
              }
            ],
            "code":"4",
            "abstract":false,
            "display":"4"
          },
          {
            "extension":[
              {
                "url":"http://tcm7.com.au/fhir#weightedValue",
                "valueDecimal":5.0
              }
            ],
            "code":"5",
            "abstract":false,
            "display":"5"
          }
        ]
      }
    },
    {
      "resourceType":"ValueSet",
      "id":"3615872903624415b798ff7dcce42481",
      "name":"K10Scale7",
      "publisher":"DCA eHealth Solutions",
      "telecom":[
        {
          "system":"url",
          "value":"http://tcm7.com.au/fhir"
        }
      ],
      "description":"7. depressed?",
      "status":"active",
      "experimental":false,
      "extensible":false,
      "date":"2014-05-03T10:41:45-07:00",
      "define":{
        "system":"http://tcm7.com.au/fhir#code=K10Scale7",
      "caseSensitive":true,
        "concept":[
          {
            "extension":[
              {
                "url":"http://tcm7.com.au/fhir#weightedValue",
                "valueDecimal":1.0
              }
            ],
            "code":"1",
            "abstract":false,
            "display":"1"
          },
          {
            "extension":[
              {
                "url":"http://tcm7.com.au/fhir#weightedValue",
                "valueDecimal":2.0
              }
            ],
            "code":"2",
            "abstract":false,
            "display":"2"
          },
          {
            "extension":[
              {
                "url":"http://tcm7.com.au/fhir#weightedValue",
                "valueDecimal":3.0
              }
            ],
            "code":"3",
            "abstract":false,
            "display":"3"
          },
          {
            "extension":[
              {
                "url":"http://tcm7.com.au/fhir#weightedValue",
                "valueDecimal":4.0
              }
            ],
            "code":"4",
            "abstract":false,
            "display":"4"
          },
          {
            "extension":[
              {
                "url":"http://tcm7.com.au/fhir#weightedValue",
                "valueDecimal":5.0
              }
            ],
            "code":"5",
            "abstract":false,
            "display":"5"
          }
        ]
      }
    },
    {
      "resourceType":"ValueSet",
      "id":"d501868df5944d9cab1f45c53ebd0a91",
      "name":"K10Scale8",
      "publisher":"DCA eHealth Solutions",
      "telecom":[
        {
          "system":"url",
          "value":"http://tcm7.com.au/fhir"
        }
      ],
      "description":"8. that everything was an effort?",
      "status":"active",
      "experimental":false,
      "extensible":false,
      "date":"2014-05-03T10:41:45-07:00",
      "define":{
        "system":"http://tcm7.com.au/fhir#code=K10Scale8",
      "caseSensitive":true,
        "concept":[
          {
            "extension":[
              {
                "url":"http://tcm7.com.au/fhir#weightedValue",
                "valueDecimal":1.0
              }
            ],
            "code":"1",
            "abstract":false,
            "display":"1"
          },
          {
            "extension":[
              {
                "url":"http://tcm7.com.au/fhir#weightedValue",
                "valueDecimal":2.0
              }
            ],
            "code":"2",
            "abstract":false,
            "display":"2"
          },
          {
            "extension":[
              {
                "url":"http://tcm7.com.au/fhir#weightedValue",
                "valueDecimal":3.0
              }
            ],
            "code":"3",
            "abstract":false,
            "display":"3"
          },
          {
            "extension":[
              {
                "url":"http://tcm7.com.au/fhir#weightedValue",
                "valueDecimal":4.0
              }
            ],
            "code":"4",
            "abstract":false,
            "display":"4"
          },
          {
            "extension":[
              {
                "url":"http://tcm7.com.au/fhir#weightedValue",
                "valueDecimal":5.0
              }
            ],
            "code":"5",
            "abstract":false,
            "display":"5"
          }
        ]
      }
    },
    {
      "resourceType":"ValueSet",
      "id":"45076c9ff7bb483bb6a9e5d480f6392d",
      "name":"K10Scale9",
      "publisher":"DCA eHealth Solutions",
      "telecom":[
        {
          "system":"url",
          "value":"http://tcm7.com.au/fhir"
        }
      ],
      "description":"9. so sad that nothing could cheer you up?",
      "status":"active",
      "experimental":false,
      "extensible":false,
      "date":"2014-05-03T10:41:45-07:00",
      "define":{
        "system":"http://tcm7.com.au/fhir#code=K10Scale9",
      "caseSensitive":true,
        "concept":[
          {
            "extension":[
              {
                "url":"http://tcm7.com.au/fhir#weightedValue",
                "valueDecimal":1.0
              }
            ],
            "code":"1",
            "abstract":false,
            "display":"1"
          },
          {
            "extension":[
              {
                "url":"http://tcm7.com.au/fhir#weightedValue",
                "valueDecimal":2.0
              }
            ],
            "code":"2",
            "abstract":false,
            "display":"2"
          },
          {
            "extension":[
              {
                "url":"http://tcm7.com.au/fhir#weightedValue",
                "valueDecimal":3.0
              }
            ],
            "code":"3",
            "abstract":false,
            "display":"3"
          },
          {
            "extension":[
              {
                "url":"http://tcm7.com.au/fhir#weightedValue",
                "valueDecimal":4.0
              }
            ],
            "code":"4",
            "abstract":false,
            "display":"4"
          },
          {
            "extension":[
              {
                "url":"http://tcm7.com.au/fhir#weightedValue",
                "valueDecimal":5.0
              }
            ],
            "code":"5",
            "abstract":false,
            "display":"5"
          }
        ]
      }
    },
    {
      "resourceType":"ValueSet",
      "id":"d51d941b60dc4fc7bd9795d3abf2cc09",
      "name":"K10Scale10",
      "publisher":"DCA eHealth Solutions",
      "telecom":[
        {
          "system":"url",
          "value":"http://tcm7.com.au/fhir"
        }
      ],
      "description":"10. worthless?",
      "status":"active",
      "experimental":false,
      "extensible":false,
      "date":"2014-05-03T10:41:45-07:00",
      "define":{
        "system":"http://tcm7.com.au/fhir#code=K10Scale10",
      "caseSensitive":true,
        "concept":[
          {
            "extension":[
              {
                "url":"http://tcm7.com.au/fhir#weightedValue",
                "valueDecimal":1.0
              }
            ],
            "code":"1",
            "abstract":false,
            "display":"1"
          },
          {
            "extension":[
              {
                "url":"http://tcm7.com.au/fhir#weightedValue",
                "valueDecimal":2.0
              }
            ],
            "code":"2",
            "abstract":false,
            "display":"2"
          },
          {
            "extension":[
              {
                "url":"http://tcm7.com.au/fhir#weightedValue",
                "valueDecimal":3.0
              }
            ],
            "code":"3",
            "abstract":false,
            "display":"3"
          },
          {
            "extension":[
              {
                "url":"http://tcm7.com.au/fhir#weightedValue",
                "valueDecimal":4.0
              }
            ],
            "code":"4",
            "abstract":false,
            "display":"4"
          },
          {
            "extension":[
              {
                "url":"http://tcm7.com.au/fhir#weightedValue",
                "valueDecimal":5.0
              }
            ],
            "code":"5",
            "abstract":false,
            "display":"5"
          }
        ]
      }
    }
  ],
  "status":"published",
  "authored":"2014-05-03T10:41:31-07:00",
  "author":{
    "id":"ee4c1d40079a11d3b69e00c0a850b73c",
    "reference":"Practitioner/ee4c1d40079a11d3b69e00c0a850b73c",
    "display":"Demonstration Copy User"
  },
  "name":{
    "coding":[
      {
        "system":"http://tcm7.com.au/fhir/7-12/Questionnaire",
        "code":"SCTT 2006 Psychosocial"
      }
    ],
    "text":"SCTT 2006 Psychosocial"
  },
  "identifier":[
    {
      "system":"http://tcm7.com.au/fhir/7-12/Questionnaire",
      "value":"ad2018b8907041089cb0c6ac7c138c3d"
    }
  ],
  "group":{
    "header":"SCTT 2006 Psychosocial",
    "question":[
      {
        "extension":[
          {
            "url":"http://hl7.org/fhir/questionnaire-extensions#answerFormat",
            "valueCode":"single-choice"
          }
        ],
        "name":{
          "coding":[
            {
              "system":"http://tcm7.com.au/fhir/7-12/Questionnaire",
              "code":"K10Scale1"
            }
          ],
          "text":"1. tired out for no good reason"
        },
        "text":"1. tired out for no good reason",
        "options":{
          "reference":"#423f0b31f93648168caff51d11df8e4c",
          "display":"Contained K10Scale1 ValueSet ID: #423f0b31f93648168caff51d11df8e4c"
        }
      },
      {
        "extension":[
          {
            "url":"http://hl7.org/fhir/questionnaire-extensions#answerFormat",
            "valueCode":"single-choice"
          }
        ],
        "name":{
          "coding":[
            {
              "system":"http://tcm7.com.au/fhir/7-12/Questionnaire",
              "code":"K10Scale2"
            }
          ],
          "text":"2. nervous?"
        },
        "text":"2. nervous?",
        "options":{
          "reference":"#f2ab75e8d6954504bc5eb1698b939396",
          "display":"Contained K10Scale2 ValueSet ID: #f2ab75e8d6954504bc5eb1698b939396"
        }
      },
      {
        "extension":[
          {
            "url":"http://hl7.org/fhir/questionnaire-extensions#answerFormat",
            "valueCode":"single-choice"
          }
        ],
        "name":{
          "coding":[
            {
              "system":"http://tcm7.com.au/fhir/7-12/Questionnaire",
              "code":"K10Scale3"
            }
          ],
          "text":"3. so nervous that nothing could calm you down?"
        },
        "text":"3. so nervous that nothing could calm you down?",
        "options":{
          "reference":"#efbbcef14a234cc19ef84cf6af62a7d4",
          "display":"Contained K10Scale3 ValueSet ID: #efbbcef14a234cc19ef84cf6af62a7d4"
        }
      },
      {
        "extension":[
          {
            "url":"http://hl7.org/fhir/questionnaire-extensions#answerFormat",
            "valueCode":"single-choice"
          }
        ],
        "name":{
          "coding":[
            {
              "system":"http://tcm7.com.au/fhir/7-12/Questionnaire",
              "code":"K10Scale4"
            }
          ],
          "text":"4. hopeless?"
        },
        "text":"4. hopeless?",
        "options":{
          "reference":"#a0b2745dcf8f459c97bfd3a0fe9d2438",
          "display":"Contained K10Scale4 ValueSet ID: #a0b2745dcf8f459c97bfd3a0fe9d2438"
        }
      },
      {
        "extension":[
          {
            "url":"http://hl7.org/fhir/questionnaire-extensions#answerFormat",
            "valueCode":"single-choice"
          }
        ],
        "name":{
          "coding":[
            {
              "system":"http://tcm7.com.au/fhir/7-12/Questionnaire",
              "code":"K10Scale5"
            }
          ],
          "text":"5. restless or fidgety?"
        },
        "text":"5. restless or fidgety?",
        "options":{
          "reference":"#09cb32a0d22e4063ab3ef9162a406767",
          "display":"Contained K10Scale5 ValueSet ID: #09cb32a0d22e4063ab3ef9162a406767"
        }
      },
      {
        "extension":[
          {
            "url":"http://hl7.org/fhir/questionnaire-extensions#answerFormat",
            "valueCode":"single-choice"
          }
        ],
        "name":{
          "coding":[
            {
              "system":"http://tcm7.com.au/fhir/7-12/Questionnaire",
              "code":"K10Scale6"
            }
          ],
          "text":"6. so restless you could not sit still?"
        },
        "text":"6. so restless you could not sit still?",
        "options":{
          "reference":"#6407c2ccfa944cb9b4a25f67aa4bd0df",
          "display":"Contained K10Scale6 ValueSet ID: #6407c2ccfa944cb9b4a25f67aa4bd0df"
        }
      },
      {
        "extension":[
          {
            "url":"http://hl7.org/fhir/questionnaire-extensions#answerFormat",
            "valueCode":"single-choice"
          }
        ],
        "name":{
          "coding":[
            {
              "system":"http://tcm7.com.au/fhir/7-12/Questionnaire",
              "code":"K10Scale7"
            }
          ],
          "text":"7. depressed?"
        },
        "text":"7. depressed?",
        "options":{
          "reference":"#3615872903624415b798ff7dcce42481",
          "display":"Contained K10Scale7 ValueSet ID: #3615872903624415b798ff7dcce42481"
        }
      },
      {
        "extension":[
          {
            "url":"http://hl7.org/fhir/questionnaire-extensions#answerFormat",
            "valueCode":"single-choice"
          }
        ],
        "name":{
          "coding":[
            {
              "system":"http://tcm7.com.au/fhir/7-12/Questionnaire",
              "code":"K10Scale8"
            }
          ],
          "text":"8. that everything was an effort?"
        },
        "text":"8. that everything was an effort?",
        "options":{
          "reference":"#d501868df5944d9cab1f45c53ebd0a91",
          "display":"Contained K10Scale8 ValueSet ID: #d501868df5944d9cab1f45c53ebd0a91"
        }
      },
      {
        "extension":[
          {
            "url":"http://hl7.org/fhir/questionnaire-extensions#answerFormat",
            "valueCode":"single-choice"
          }
        ],
        "name":{
          "coding":[
            {
              "system":"http://tcm7.com.au/fhir/7-12/Questionnaire",
              "code":"K10Scale9"
            }
          ],
          "text":"9. so sad that nothing could cheer you up?"
        },
        "text":"9. so sad that nothing could cheer you up?",
        "options":{
          "reference":"#45076c9ff7bb483bb6a9e5d480f6392d",
          "display":"Contained K10Scale9 ValueSet ID: #45076c9ff7bb483bb6a9e5d480f6392d"
        }
      },
      {
        "extension":[
          {
            "url":"http://hl7.org/fhir/questionnaire-extensions#answerFormat",
            "valueCode":"single-choice"
          }
        ],
        "name":{
          "coding":[
            {
              "system":"http://tcm7.com.au/fhir/7-12/Questionnaire",
              "code":"K10Scale10"
            }
          ],
          "text":"10. worthless?"
        },
        "text":"10. worthless?",
        "options":{
          "reference":"#d51d941b60dc4fc7bd9795d3abf2cc09",
          "display":"Contained K10Scale10 ValueSet ID: #d51d941b60dc4fc7bd9795d3abf2cc09"
        }
      },
      {
        "extension":[
          {
            "url":"http://hl7.org/fhir/questionnaire-extensions#answerFormat",
            "valueCode":"string"
          }
        ],
        "name":{
          "coding":[
            {
              "system":"http://tcm7.com.au/fhir/7-12/Questionnaire",
              "code":"K10ScaleScore"
            }
          ],
          "text":"Total K-10 score"
        },
        "text":"Total K-10 score"
      },
      {
        "extension":[
          {
            "url":"http://hl7.org/fhir/questionnaire-extensions#answerFormat",
            "valueCode":"single-choice"
          }
        ],
        "name":{
          "coding":[
            {
              "system":"http://tcm7.com.au/fhir/7-12/Questionnaire",
              "code":"PersonalSocialSupport"
            }
          ],
          "text":"Personal and Social Support"
        },
        "text":"Personal and Social Support",
        "options":{
          "reference":"http://spark.furore.com/fhir/ValueSet/8818a9c1d03c4a7fb4442380e9b3bb65",
          "display":"SCTT 2006 Personal Social Support"
        }
      },
      {
        "extension":[
          {
            "url":"http://tcm7.com.au/fhir#multiline",
            "valueBoolean":true
          },
          {
            "url":"http://hl7.org/fhir/questionnaire-extensions#answerFormat",
            "valueCode":"string"
          }
        ],
        "name":{
          "coding":[
            {
              "system":"http://tcm7.com.au/fhir/7-12/Questionnaire",
              "code":"PersonalSocialSupportComments"
            }
          ],
          "text":"Comment on personal and social support, including opportunities"
        },
        "text":"Comment on personal and social support, including opportunities"
      },
      {
        "extension":[
          {
            "url":"http://tcm7.com.au/fhir#multiline",
            "valueBoolean":true
          },
          {
            "url":"http://hl7.org/fhir/questionnaire-extensions#answerFormat",
            "valueCode":"string"
          }
        ],
        "name":{
          "coding":[
            {
              "system":"http://tcm7.com.au/fhir/7-12/Questionnaire",
              "code":"ReferralRecommendedTo"
            }
          ],
          "text":"Referral recommended to"
        },
        "text":"Referral recommended to"
      }
    ]
  }
}
